Mar. 11, 2024   08:38:14
A.C. Impedance
File: f:\ww\eis-uncycled-1.txt
Data Source:  Experiment
Instrument Model:  CHI760E
Header: 
Note: 

Init E (V) = 1.74
High Frequency (Hz) = 1e+5
Low Frequency (Hz) = 0.1
Imp SF
Amplitude (V) = 0.005
Quiet Time (sec) = 2
Cycles (.1-1Hz) = 1

Freq/Hz, Z'/ohm, Z"/ohm, Z/ohm, Phase/deg

9.995e+4, 2.710e+0, -7.343e-1, 2.808e+0, -15.2
8.252e+4, 2.849e+0, -1.124e+0, 3.062e+0, -21.5
6.812e+4, 2.986e+0, -1.508e+0, 3.346e+0, -26.8
5.625e+4, 3.118e+0, -1.905e+0, 3.653e+0, -31.4
4.644e+4, 3.250e+0, -2.338e+0, 4.004e+0, -35.7
3.833e+4, 3.385e+0, -2.819e+0, 4.405e+0, -39.8
3.164e+4, 3.524e+0, -3.373e+0, 4.878e+0, -43.7
2.612e+4, 3.679e+0, -4.019e+0, 5.449e+0, -47.5
2.153e+4, 3.852e+0, -4.783e+0, 6.141e+0, -51.2
1.777e+4, 4.063e+0, -5.676e+0, 6.980e+0, -54.4
1.470e+4, 4.312e+0, -6.719e+0, 7.984e+0, -57.3
1.211e+4, 4.624e+0, -7.967e+0, 9.212e+0, -59.9
1.001e+4, 5.006e+0, -9.416e+0, 1.066e+1, -62.0
8.252e+3, 5.497e+0, -1.115e+1, 1.243e+1, -63.8
6.812e+3, 6.089e+0, -1.314e+1, 1.449e+1, -65.1
5.625e+3, 6.818e+0, -1.548e+1, 1.691e+1, -66.2
4.643e+3, 7.725e+0, -1.817e+1, 1.975e+1, -67.0
3.833e+3, 8.863e+0, -2.131e+1, 2.308e+1, -67.4
3.164e+3, 1.029e+1, -2.494e+1, 2.698e+1, -67.6
2.612e+3, 1.208e+1, -2.903e+1, 3.144e+1, -67.4
2.153e+3, 1.432e+1, -3.388e+1, 3.678e+1, -67.1
1.777e+3, 1.708e+1, -3.941e+1, 4.295e+1, -66.6
1.470e+3, 2.046e+1, -4.556e+1, 4.995e+1, -65.8
1.211e+3, 2.470e+1, -5.257e+1, 5.808e+1, -64.8
1.001e+3, 2.985e+1, -6.024e+1, 6.723e+1, -63.6
8.252e+2, 3.649e+1, -6.827e+1, 7.741e+1, -61.9
6.836e+2, 4.399e+1, -7.731e+1, 8.895e+1, -60.4
5.615e+2, 5.346e+1, -8.739e+1, 1.024e+2, -58.5
4.639e+2, 6.439e+1, -9.756e+1, 1.169e+2, -56.6
3.809e+2, 7.771e+1, -1.082e+2, 1.332e+2, -54.3
3.174e+2, 9.195e+1, -1.180e+2, 1.496e+2, -52.1
2.588e+2, 1.100e+2, -1.283e+2, 1.690e+2, -49.4
2.148e+2, 1.286e+2, -1.367e+2, 1.877e+2, -46.8
1.758e+2, 1.506e+2, -1.444e+2, 2.086e+2, -43.8
1.465e+2, 1.720e+2, -1.496e+2, 2.280e+2, -41.0
1.221e+2, 1.943e+2, -1.529e+2, 2.473e+2, -38.2
9.766e+1, 2.225e+2, -1.533e+2, 2.702e+2, -34.6
8.254e+1, 2.449e+2, -1.499e+2, 2.871e+2, -31.5
6.813e+1, 2.678e+2, -1.465e+2, 3.053e+2, -28.7
5.623e+1, 2.945e+2, -1.399e+2, 3.261e+2, -25.4
4.642e+1, 3.082e+2, -1.346e+2, 3.364e+2, -23.6
3.831e+1, 3.259e+2, -1.270e+2, 3.498e+2, -21.3
3.162e+1, 3.410e+2, -1.190e+2, 3.612e+2, -19.2
2.610e+1, 3.541e+2, -1.114e+2, 3.712e+2, -17.5
2.154e+1, 3.654e+2, -1.046e+2, 3.801e+2, -16.0
1.778e+1, 3.752e+2, -9.900e+1, 3.880e+2, -14.8
1.468e+1, 3.835e+2, -9.463e+1, 3.950e+2, -13.9
1.212e+1, 3.916e+2, -9.167e+1, 4.022e+2, -13.2
1.000e+1, 3.999e+2, -8.979e+1, 4.099e+2, -12.7
8.254e+0, 4.065e+2, -9.065e+1, 4.165e+2, -12.6
6.813e+0, 4.140e+2, -9.316e+1, 4.244e+2, -12.7
5.623e+0, 4.224e+2, -9.837e+1, 4.337e+2, -13.1
4.642e+0, 4.315e+2, -1.034e+2, 4.438e+2, -13.5
3.831e+0, 4.423e+2, -1.106e+2, 4.559e+2, -14.0
3.162e+0, 4.549e+2, -1.198e+2, 4.704e+2, -14.8
2.610e+0, 4.669e+2, -1.300e+2, 4.847e+2, -15.6
2.154e+0, 4.852e+2, -1.417e+2, 5.055e+2, -16.3
1.778e+0, 4.998e+2, -1.541e+2, 5.230e+2, -17.1
1.468e+0, 5.314e+2, -1.696e+2, 5.578e+2, -17.7
1.212e+0, 5.491e+2, -1.838e+2, 5.790e+2, -18.5
1.000e+0, 5.669e+2, -1.995e+2, 6.010e+2, -19.4
8.254e-1, 5.887e+2, -2.135e+2, 6.262e+2, -19.9
6.813e-1, 6.084e+2, -2.335e+2, 6.517e+2, -21.0
5.623e-1, 6.202e+2, -2.550e+2, 6.705e+2, -22.3
4.642e-1, 6.389e+2, -2.803e+2, 6.977e+2, -23.7
3.831e-1, 6.533e+2, -3.107e+2, 7.234e+2, -25.4
3.162e-1, 6.701e+2, -3.443e+2, 7.534e+2, -27.2
2.610e-1, 6.818e+2, -3.930e+2, 7.870e+2, -30.0
2.154e-1, 6.947e+2, -4.475e+2, 8.263e+2, -32.8
1.778e-1, 7.031e+2, -5.155e+2, 8.718e+2, -36.2
1.468e-1, 7.123e+2, -5.991e+2, 9.308e+2, -40.1
1.212e-1, 7.204e+2, -6.979e+2, 1.003e+3, -44.1
1.000e-1, 7.232e+2, -8.150e+2, 1.090e+3, -48.4
