Mar. 30, 2024   09:41:35
A.C. Impedance
File: f:\ww\eis\eis-1237th(0.1 mv per s) cycled.txt
Data Source:  Experiment
Instrument Model:  CHI760E
Header: 
Note: 

Init E (V) = 2.296
High Frequency (Hz) = 1e+5
Low Frequency (Hz) = 0.1
Imp SF
Amplitude (V) = 0.005
Quiet Time (sec) = 2
Cycles (.1-1Hz) = 1

Freq/Hz, Z'/ohm, Z"/ohm, Z/ohm, Phase/deg

9.995e+4, 4.067e+0, -1.051e+0, 4.201e+0, -14.5
8.252e+4, 4.371e+0, -1.396e+0, 4.589e+0, -17.7
6.812e+4, 4.701e+0, -1.680e+0, 4.993e+0, -19.7
5.625e+4, 5.044e+0, -1.913e+0, 5.394e+0, -20.8
4.644e+4, 5.400e+0, -2.104e+0, 5.796e+0, -21.3
3.833e+4, 5.757e+0, -2.254e+0, 6.183e+0, -21.4
3.164e+4, 6.111e+0, -2.373e+0, 6.555e+0, -21.2
2.612e+4, 6.458e+0, -2.473e+0, 6.915e+0, -21.0
2.153e+4, 6.802e+0, -2.563e+0, 7.269e+0, -20.6
1.777e+4, 7.136e+0, -2.640e+0, 7.609e+0, -20.3
1.470e+4, 7.463e+0, -2.717e+0, 7.942e+0, -20.0
1.211e+4, 7.792e+0, -2.798e+0, 8.279e+0, -19.8
1.001e+4, 8.111e+0, -2.881e+0, 8.607e+0, -19.6
8.252e+3, 8.443e+0, -2.979e+0, 8.953e+0, -19.4
6.812e+3, 8.760e+0, -3.090e+0, 9.289e+0, -19.4
5.625e+3, 9.087e+0, -3.224e+0, 9.642e+0, -19.5
4.643e+3, 9.411e+0, -3.385e+0, 1.000e+1, -19.8
3.833e+3, 9.747e+0, -3.575e+0, 1.038e+1, -20.1
3.164e+3, 1.009e+1, -3.806e+0, 1.078e+1, -20.7
2.612e+3, 1.044e+1, -4.073e+0, 1.121e+1, -21.3
2.153e+3, 1.083e+1, -4.399e+0, 1.169e+1, -22.1
1.777e+3, 1.124e+1, -4.784e+0, 1.222e+1, -23.1
1.470e+3, 1.170e+1, -5.228e+0, 1.281e+1, -24.1
1.211e+3, 1.222e+1, -5.755e+0, 1.351e+1, -25.2
1.001e+3, 1.282e+1, -6.340e+0, 1.430e+1, -26.3
8.252e+2, 1.349e+1, -6.891e+0, 1.515e+1, -27.1
6.836e+2, 1.431e+1, -7.606e+0, 1.620e+1, -28.0
5.615e+2, 1.533e+1, -8.384e+0, 1.747e+1, -28.7
4.639e+2, 1.649e+1, -9.132e+0, 1.885e+1, -29.0
3.809e+2, 1.789e+1, -9.855e+0, 2.043e+1, -28.8
3.174e+2, 1.936e+1, -1.042e+1, 2.198e+1, -28.3
2.588e+2, 2.113e+1, -1.086e+1, 2.376e+1, -27.2
2.148e+2, 2.283e+1, -1.107e+1, 2.537e+1, -25.9
1.758e+2, 2.466e+1, -1.107e+1, 2.703e+1, -24.2
1.465e+2, 2.625e+1, -1.088e+1, 2.841e+1, -22.5
1.221e+2, 2.771e+1, -1.056e+1, 2.965e+1, -20.9
9.766e+1, 2.928e+1, -1.007e+1, 3.096e+1, -19.0
8.254e+1, 3.045e+1, -9.395e+0, 3.186e+1, -17.1
6.813e+1, 3.145e+1, -9.051e+0, 3.273e+1, -16.1
5.623e+1, 3.252e+1, -8.746e+0, 3.367e+1, -15.1
4.642e+1, 3.302e+1, -8.646e+0, 3.414e+1, -14.7
3.831e+1, 3.370e+1, -8.656e+0, 3.480e+1, -14.4
3.162e+1, 3.430e+1, -8.830e+0, 3.542e+1, -14.4
2.610e+1, 3.489e+1, -9.189e+0, 3.608e+1, -14.8
2.154e+1, 3.547e+1, -9.746e+0, 3.678e+1, -15.4
1.778e+1, 3.608e+1, -1.053e+1, 3.758e+1, -16.3
1.468e+1, 3.673e+1, -1.155e+1, 3.850e+1, -17.5
1.212e+1, 3.745e+1, -1.283e+1, 3.959e+1, -18.9
1.000e+1, 3.829e+1, -1.431e+1, 4.088e+1, -20.5
8.254e+0, 3.921e+1, -1.636e+1, 4.248e+1, -22.6
6.813e+0, 4.016e+1, -1.869e+1, 4.430e+1, -25.0
5.623e+0, 4.124e+1, -2.152e+1, 4.652e+1, -27.6
4.642e+0, 4.246e+1, -2.496e+1, 4.925e+1, -30.4
3.831e+0, 4.389e+1, -2.917e+1, 5.270e+1, -33.6
3.162e+0, 4.564e+1, -3.446e+1, 5.719e+1, -37.1
2.610e+0, 4.698e+1, -4.023e+1, 6.184e+1, -40.6
2.154e+0, 4.944e+1, -4.861e+1, 6.933e+1, -44.5
1.778e+0, 5.089e+1, -5.685e+1, 7.630e+1, -48.2
1.468e+0, 5.510e+1, -7.328e+1, 9.168e+1, -53.1
1.212e+0, 5.631e+1, -8.524e+1, 1.022e+2, -56.6
1.000e+0, 5.807e+1, -9.885e+1, 1.146e+2, -59.6
8.254e-1, 6.060e+1, -1.153e+2, 1.303e+2, -62.3
6.813e-1, 6.281e+1, -1.327e+2, 1.468e+2, -64.7
5.623e-1, 6.558e+1, -1.539e+2, 1.672e+2, -66.9
4.642e-1, 6.908e+1, -1.792e+2, 1.921e+2, -68.9
3.831e-1, 7.350e+1, -2.092e+2, 2.217e+2, -70.6
3.162e-1, 7.894e+1, -2.449e+2, 2.573e+2, -72.1
2.610e-1, 8.531e+1, -2.867e+2, 2.991e+2, -73.4
2.154e-1, 9.281e+1, -3.367e+2, 3.492e+2, -74.6
1.778e-1, 1.013e+2, -3.962e+2, 4.089e+2, -75.7
1.468e-1, 1.115e+2, -4.659e+2, 4.791e+2, -76.5
1.212e-1, 1.229e+2, -5.508e+2, 5.643e+2, -77.4
1.000e-1, 1.360e+2, -6.505e+2, 6.646e+2, -78.2
