Mar. 16, 2024   16:11:02
A.C. Impedance
File: f:\ww\eis\eis-25th cycled.txt
Data Source:  Experiment
Instrument Model:  CHI760E
Header: 
Note: 

Init E (V) = 2.28
High Frequency (Hz) = 1e+5
Low Frequency (Hz) = 0.1
Imp SF
Amplitude (V) = 0.005
Quiet Time (sec) = 2
Cycles (.1-1Hz) = 1

Freq/Hz, Z'/ohm, Z"/ohm, Z/ohm, Phase/deg

9.995e+4, 3.326e+0, -1.548e+0, 3.669e+0, -25.0
8.252e+4, 3.620e+0, -2.008e+0, 4.139e+0, -29.0
6.812e+4, 3.938e+0, -2.440e+0, 4.633e+0, -31.8
5.625e+4, 4.274e+0, -2.860e+0, 5.143e+0, -33.8
4.644e+4, 4.636e+0, -3.283e+0, 5.681e+0, -35.3
3.833e+4, 5.019e+0, -3.716e+0, 6.245e+0, -36.5
3.164e+4, 5.429e+0, -4.166e+0, 6.843e+0, -37.5
2.612e+4, 5.862e+0, -4.650e+0, 7.482e+0, -38.4
2.153e+4, 6.325e+0, -5.174e+0, 8.172e+0, -39.3
1.777e+4, 6.813e+0, -5.746e+0, 8.913e+0, -40.1
1.470e+4, 7.333e+0, -6.380e+0, 9.720e+0, -41.0
1.211e+4, 7.899e+0, -7.108e+0, 1.063e+1, -42.0
1.001e+4, 8.496e+0, -7.926e+0, 1.162e+1, -43.0
8.252e+3, 9.170e+0, -8.888e+0, 1.277e+1, -44.1
6.812e+3, 9.898e+0, -9.990e+0, 1.406e+1, -45.3
5.625e+3, 1.072e+1, -1.127e+1, 1.555e+1, -46.4
4.643e+3, 1.166e+1, -1.274e+1, 1.727e+1, -47.5
3.833e+3, 1.277e+1, -1.444e+1, 1.928e+1, -48.5
3.164e+3, 1.409e+1, -1.638e+1, 2.160e+1, -49.3
2.612e+3, 1.572e+1, -1.855e+1, 2.431e+1, -49.7
2.153e+3, 1.769e+1, -2.100e+1, 2.746e+1, -49.9
1.777e+3, 2.010e+1, -2.360e+1, 3.100e+1, -49.6
1.470e+3, 2.299e+1, -2.643e+1, 3.503e+1, -49.0
1.211e+3, 2.654e+1, -2.937e+1, 3.959e+1, -47.9
1.001e+3, 3.072e+1, -3.224e+1, 4.453e+1, -46.4
8.252e+2, 3.572e+1, -3.478e+1, 4.986e+1, -44.2
6.836e+2, 4.107e+1, -3.701e+1, 5.529e+1, -42.0
5.615e+2, 4.721e+1, -3.875e+1, 6.108e+1, -39.4
4.639e+2, 5.349e+1, -3.973e+1, 6.663e+1, -36.6
3.809e+2, 6.014e+1, -3.983e+1, 7.213e+1, -33.5
3.174e+2, 6.610e+1, -3.941e+1, 7.696e+1, -30.8
2.588e+2, 7.235e+1, -3.830e+1, 8.186e+1, -27.9
2.148e+2, 7.757e+1, -3.685e+1, 8.587e+1, -25.4
1.758e+2, 8.261e+1, -3.501e+1, 8.972e+1, -23.0
1.465e+2, 8.664e+1, -3.332e+1, 9.283e+1, -21.0
1.221e+2, 9.018e+1, -3.171e+1, 9.560e+1, -19.4
9.766e+1, 9.403e+1, -2.976e+1, 9.863e+1, -17.6
8.254e+1, 9.704e+1, -2.783e+1, 1.010e+2, -16.0
6.813e+1, 9.970e+1, -2.719e+1, 1.033e+2, -15.3
5.623e+1, 1.029e+2, -2.690e+1, 1.063e+2, -14.7
4.642e+1, 1.046e+2, -2.693e+1, 1.080e+2, -14.4
3.831e+1, 1.071e+2, -2.733e+1, 1.105e+2, -14.3
3.162e+1, 1.096e+2, -2.800e+1, 1.132e+2, -14.3
2.610e+1, 1.123e+2, -2.898e+1, 1.160e+2, -14.5
2.154e+1, 1.151e+2, -3.023e+1, 1.190e+2, -14.7
1.778e+1, 1.180e+2, -3.179e+1, 1.222e+2, -15.1
1.468e+1, 1.209e+2, -3.361e+1, 1.255e+2, -15.5
1.212e+1, 1.241e+2, -3.576e+1, 1.291e+2, -16.1
1.000e+1, 1.272e+2, -3.836e+1, 1.329e+2, -16.8
8.254e+0, 1.305e+2, -4.151e+1, 1.369e+2, -17.6
6.813e+0, 1.337e+2, -4.530e+1, 1.412e+2, -18.7
5.623e+0, 1.371e+2, -4.997e+1, 1.459e+2, -20.0
4.642e+0, 1.406e+2, -5.577e+1, 1.513e+2, -21.6
3.831e+0, 1.446e+2, -6.303e+1, 1.577e+2, -23.6
3.162e+0, 1.493e+2, -7.234e+1, 1.659e+2, -25.8
2.610e+0, 1.528e+2, -8.296e+1, 1.739e+2, -28.5
2.154e+0, 1.599e+2, -9.842e+1, 1.877e+2, -31.6
1.778e+0, 1.639e+2, -1.146e+2, 2.000e+2, -35.0
1.468e+0, 1.798e+2, -1.466e+2, 2.320e+2, -39.2
1.212e+0, 1.836e+2, -1.722e+2, 2.517e+2, -43.2
1.000e+0, 1.869e+2, -2.017e+2, 2.750e+2, -47.2
8.254e-1, 1.930e+2, -2.376e+2, 3.061e+2, -50.9
6.813e-1, 1.940e+2, -2.716e+2, 3.337e+2, -54.5
5.623e-1, 1.975e+2, -3.166e+2, 3.731e+2, -58.0
4.642e-1, 2.022e+2, -3.706e+2, 4.221e+2, -61.4
3.831e-1, 2.082e+2, -4.318e+2, 4.793e+2, -64.3
3.162e-1, 2.159e+2, -5.077e+2, 5.517e+2, -67.0
2.610e-1, 2.263e+2, -5.951e+2, 6.367e+2, -69.2
2.154e-1, 2.396e+2, -6.986e+2, 7.386e+2, -71.1
1.778e-1, 2.560e+2, -8.255e+2, 8.643e+2, -72.8
1.468e-1, 2.772e+2, -9.737e+2, 1.012e+3, -74.1
1.212e-1, 3.028e+2, -1.153e+3, 1.193e+3, -75.3
1.000e-1, 3.351e+2, -1.367e+3, 1.407e+3, -76.2
